# Input for COSMO
#
#
  P [hPa]     Z [m]     T [K]  Dewp [K]    RH [%]  r [g/kg]  WS [m/s]  WD [deg]
  970.000     0.000   296.407     0.000    82.207     0.000     0.000   270.000
    0.000    50.000   298.400     0.000    72.293     0.000    10.000   270.000
    0.000   100.000   298.080     0.000    73.122     0.000    10.000   270.000
    0.000   150.000   297.761     0.000    73.965     0.000    10.000   270.000
    0.000   200.000   297.441     0.000    74.821     0.000    10.000   270.000
    0.000   250.000   297.121     0.000    75.691     0.000    10.000   270.000
    0.000   300.000   296.801     0.000    76.575     0.000    10.000   270.000
    0.000   350.000   296.480     0.000    77.473     0.000    10.000   270.000
    0.000   400.000   296.164     0.000    78.371     0.000    10.000   270.000
    0.000   450.000   295.848     0.000    79.284     0.000    10.000   270.000
    0.000   500.000   295.531     0.000    80.211     0.000    10.000   270.000
    0.000   550.000   295.214     0.000    81.154     0.000    10.000   270.000
    0.000   600.000   294.897     0.000    82.112     0.000    10.000   270.000
    0.000   650.000   294.580     0.000    83.085     0.000    10.000   270.000
    0.000   700.000   294.260     0.000    83.685     0.000    10.000   270.000
    0.000   750.000   294.053     0.000    83.705     0.000    10.000   270.000
    0.000   800.000   293.845     0.000    83.725     0.000    10.000   270.000
    0.000   850.000   293.636     0.000    83.744     0.000    10.000   270.000
    0.000   900.000   293.427     0.000    83.763     0.000    10.000   270.000
    0.000   950.000   293.218     0.000    83.783     0.000    10.000   270.000
    0.000  1000.000   293.008     0.000    83.802     0.000    10.000   270.000
    0.000  1050.000   292.798     0.000    83.820     0.000    10.000   270.000
    0.000  1100.000   292.587     0.000    83.838     0.000    10.000   270.000
    0.000  1150.000   292.375     0.000    83.856     0.000    10.000   270.000
    0.000  1200.000   292.164     0.000    83.874     0.000    10.000   270.000
    0.000  1250.000   291.951     0.000    83.891     0.000    10.000   270.000
    0.000  1300.000   291.739     0.000    83.907     0.000    10.000   270.000
    0.000  1350.000   291.526     0.000    81.807     0.000    10.000   270.000
    0.000  1400.000   291.312     0.000    79.675     0.000    10.000   270.000
    0.000  1450.000   291.098     0.000    77.509     0.000    10.000   270.000
    0.000  1500.000   290.883     0.000    75.308     0.000    10.000   270.000
    0.000  1550.000   290.668     0.000    73.073     0.000    10.000   270.000
    0.000  1600.000   290.452     0.000    70.802     0.000    10.000   270.000
    0.000  1650.000   290.236     0.000    68.494     0.000    10.000   270.000
    0.000  1700.000   290.019     0.000    66.148     0.000    10.000   270.000
    0.000  1750.000   289.801     0.000    63.764     0.000    10.000   270.000
    0.000  1800.000   289.583     0.000    61.340     0.000    10.000   270.000
    0.000  1850.000   289.364     0.000    58.877     0.000    10.000   270.000
    0.000  1900.000   289.145     0.000    56.372     0.000    10.000   270.000
    0.000  1950.000   288.925     0.000    53.824     0.000    10.000   270.000
    0.000  2000.000   288.705     0.000    51.234     0.000    10.000   270.000
    0.000  2050.000   288.484     0.000    48.599     0.000    10.000   270.000
    0.000  2100.000   288.262     0.000    45.919     0.000    10.000   270.000
    0.000  2150.000   288.040     0.000    43.192     0.000    10.000   270.000
    0.000  2200.000   287.817     0.000    40.419     0.000    10.000   270.000
    0.000  2250.000   287.594     0.000    37.596     0.000    10.000   270.000
    0.000  2300.000   287.370     0.000    34.724     0.000    10.000   270.000
    0.000  2350.000   287.145     0.000    31.801     0.000    10.000   270.000
    0.000  2400.000   286.920     0.000    28.826     0.000    10.000   270.000
    0.000  2450.000   286.695     0.000    25.798     0.000    10.000   270.000
    0.000  2500.000   286.468     0.000    22.715     0.000    10.000   270.000
    0.000  2550.000   286.424     0.000    22.645     0.000    10.000   270.000
    0.000  2600.000   286.380     0.000    22.575     0.000    10.000   270.000
    0.000  2650.000   286.334     0.000    22.508     0.000    10.000   270.000
    0.000  2700.000   286.288     0.000    22.441     0.000    10.000   270.000
    0.000  2750.000   286.241     0.000    22.376     0.000    10.000   270.000
    0.000  2800.000   286.193     0.000    22.312     0.000    10.000   270.000
    0.000  2850.000   286.144     0.000    22.250     0.000    10.000   270.000
    0.000  2900.000   286.095     0.000    22.188     0.000    10.000   270.000
    0.000  2950.000   286.045     0.000    22.128     0.000    10.000   270.000
    0.000  3000.000   285.994     0.000    22.070     0.000    10.000   270.000
    0.000  3050.000   285.943     0.000    22.012     0.000    10.000   270.000
    0.000  3100.000   285.890     0.000    21.956     0.000    10.000   270.000
    0.000  3150.000   285.837     0.000    21.901     0.000    10.000   270.000
    0.000  3200.000   285.784     0.000    21.847     0.000    10.000   270.000
    0.000  3250.000   285.729     0.000    21.794     0.000    10.000   270.000
    0.000  3300.000   285.674     0.000    21.743     0.000    10.000   270.000
    0.000  3350.000   285.618     0.000    21.693     0.000    10.000   270.000
    0.000  3400.000   285.561     0.000    21.643     0.000    10.000   270.000
    0.000  3450.000   285.504     0.000    21.596     0.000    10.000   270.000
    0.000  3500.000   285.446     0.000    21.549     0.000    10.000   270.000
    0.000  3550.000   285.387     0.000    21.503     0.000    10.000   270.000
    0.000  3600.000   285.327     0.000    21.459     0.000    10.000   270.000
    0.000  3650.000   285.267     0.000    21.416     0.000    10.000   270.000
    0.000  3700.000   285.206     0.000    21.373     0.000    10.000   270.000
    0.000  3750.000   285.144     0.000    21.332     0.000    10.000   270.000
    0.000  3800.000   285.081     0.000    21.293     0.000    10.000   270.000
    0.000  3850.000   285.018     0.000    21.254     0.000    10.000   270.000
    0.000  3900.000   284.954     0.000    21.216     0.000    10.000   270.000
    0.000  3950.000   284.889     0.000    21.180     0.000    10.000   270.000
    0.000  4000.000   284.824     0.000    21.144     0.000    10.000   270.000
    0.000  4050.000   284.758     0.000    21.110     0.000    10.000   270.000
    0.000  4100.000   284.691     0.000    21.076     0.000    10.000   270.000
    0.000  4150.000   284.623     0.000    21.044     0.000    10.000   270.000
    0.000  4200.000   284.555     0.000    21.013     0.000    10.000   270.000
    0.000  4250.000   284.486     0.000    20.983     0.000    10.000   270.000
    0.000  4300.000   284.416     0.000    20.954     0.000    10.000   270.000
    0.000  4350.000   284.345     0.000    20.926     0.000    10.000   270.000
    0.000  4400.000   284.274     0.000    20.899     0.000    10.000   270.000
    0.000  4450.000   284.202     0.000    20.874     0.000    10.000   270.000
    0.000  4500.000   284.130     0.000    20.849     0.000    10.000   270.000
    0.000  4550.000   284.056     0.000    20.825     0.000    10.000   270.000
    0.000  4600.000   283.982     0.000    20.803     0.000    10.000   270.000
    0.000  4650.000   283.907     0.000    20.781     0.000    10.000   270.000
    0.000  4700.000   283.832     0.000    20.761     0.000    10.000   270.000
    0.000  4750.000   283.756     0.000    20.741     0.000    10.000   270.000
    0.000  4800.000   283.679     0.000    20.723     0.000    10.000   270.000
    0.000  4850.000   283.601     0.000    20.705     0.000    10.000   270.000
    0.000  4900.000   283.523     0.000    20.689     0.000    10.000   270.000
    0.000  4950.000   283.444     0.000    20.673     0.000    10.000   270.000
    0.000  5000.000   283.364     0.000    20.659     0.000    10.000   270.000
    0.000  5050.000   283.284     0.000    20.646     0.000    10.000   270.000
    0.000  5100.000   283.203     0.000    20.633     0.000    10.000   270.000
    0.000  5150.000   283.121     0.000    20.622     0.000    10.000   270.000
    0.000  5200.000   283.038     0.000    20.612     0.000    10.000   270.000
    0.000  5250.000   282.955     0.000    20.603     0.000    10.000   270.000
    0.000  5300.000   282.871     0.000    20.594     0.000    10.000   270.000
    0.000  5350.000   282.787     0.000    20.587     0.000    10.000   270.000
    0.000  5400.000   282.701     0.000    20.581     0.000    10.000   270.000
    0.000  5450.000   282.615     0.000    20.576     0.000    10.000   270.000
    0.000  5500.000   282.529     0.000    20.572     0.000    10.000   270.000
